participant_id,trial_id,chart_type,permuted,is_correct,response_time_ms
1331ff8d-0505-445c-ad40-be699e378037,cf-np-04,colorfield,ordered,True,31627.0
1331ff8d-0505-445c-ad40-be699e378037,cf-np-09,colorfield,ordered,False,13566.0
1331ff8d-0505-445c-ad40-be699e378037,cf-p-06,colorfield,permuted,True,7798.0
1331ff8d-0505-445c-ad40-be699e378037,line-np-03,line chart,ordered,False,16590.0
1331ff8d-0505-445c-ad40-be699e378037,line-p-03,line chart,permuted,False,9699.0
1331ff8d-0505-445c-ad40-be699e378037,line-p-00,line chart,permuted,False,5323.0
1331ff8d-0505-445c-ad40-be699e378037,line-np-05,line chart,ordered,True,8778.0
1331ff8d-0505-445c-ad40-be699e378037,cf-np-02,colorfield,ordered,True,8721.0
1331ff8d-0505-445c-ad40-be699e378037,cf-p-09,colorfield,permuted,False,10924.0
1331ff8d-0505-445c-ad40-be699e378037,cf-np-08,colorfield,ordered,True,6322.0
1331ff8d-0505-445c-ad40-be699e378037,line-p-07,line chart,permuted,False,9297.0
1331ff8d-0505-445c-ad40-be699e378037,cf-np-00,colorfield,ordered,False,8317.0
1331ff8d-0505-445c-ad40-be699e378037,cf-p-04,colorfield,permuted,False,6493.0
1331ff8d-0505-445c-ad40-be699e378037,cf-np-03,colorfield,ordered,False,6857.0
1331ff8d-0505-445c-ad40-be699e378037,cf-np-05,colorfield,ordered,True,13663.0
1331ff8d-0505-445c-ad40-be699e378037,cf-p-02,colorfield,permuted,True,9632.0
1331ff8d-0505-445c-ad40-be699e378037,line-np-08,line chart,ordered,False,5507.0
1331ff8d-0505-445c-ad40-be699e378037,line-p-09,line chart,permuted,False,4787.0
1331ff8d-0505-445c-ad40-be699e378037,cf-p-05,colorfield,permuted,True,6829.0
1331ff8d-0505-445c-ad40-be699e378037,cf-np-01,colorfield,ordered,False,8355.0
1331ff8d-0505-445c-ad40-be699e378037,cf-np-06,colorfield,ordered,True,12015.0
1331ff8d-0505-445c-ad40-be699e378037,cf-p-03,colorfield,permuted,False,7232.0
1331ff8d-0505-445c-ad40-be699e378037,line-np-09,line chart,ordered,False,10288.0
1331ff8d-0505-445c-ad40-be699e378037,line-np-01,line chart,ordered,False,8918.0
1331ff8d-0505-445c-ad40-be699e378037,cf-p-01,colorfield,permuted,False,6693.0
1331ff8d-0505-445c-ad40-be699e378037,line-p-02,line chart,permuted,True,9130.0
1331ff8d-0505-445c-ad40-be699e378037,line-np-00,line chart,ordered,True,8989.0
1331ff8d-0505-445c-ad40-be699e378037,line-p-06,line chart,permuted,False,4073.0
1331ff8d-0505-445c-ad40-be699e378037,line-np-02,line chart,ordered,True,5333.0
1331ff8d-0505-445c-ad40-be699e378037,cf-p-08,colorfield,permuted,False,8481.0
1331ff8d-0505-445c-ad40-be699e378037,line-np-04,line chart,ordered,False,5339.0
1331ff8d-0505-445c-ad40-be699e378037,line-p-01,line chart,permuted,False,4919.0
1331ff8d-0505-445c-ad40-be699e378037,line-p-04,line chart,permuted,True,10164.0
1331ff8d-0505-445c-ad40-be699e378037,cf-np-07,colorfield,ordered,True,7655.0
1331ff8d-0505-445c-ad40-be699e378037,cf-p-07,colorfield,permuted,False,7012.0
1331ff8d-0505-445c-ad40-be699e378037,line-np-07,line chart,ordered,True,9785.0
1331ff8d-0505-445c-ad40-be699e378037,cf-p-00,colorfield,permuted,True,8920.0
1331ff8d-0505-445c-ad40-be699e378037,line-p-05,line chart,permuted,True,4759.0
1331ff8d-0505-445c-ad40-be699e378037,line-p-08,line chart,permuted,False,5723.0
1331ff8d-0505-445c-ad40-be699e378037,line-np-06,line chart,ordered,False,8527.0
455d9f8f-8d6d-4e81-ba05-fb6c0ea99283,cf-np-00,colorfield,ordered,False,42472.0
455d9f8f-8d6d-4e81-ba05-fb6c0ea99283,cf-p-01,colorfield,permuted,False,10469.0
455d9f8f-8d6d-4e81-ba05-fb6c0ea99283,cf-np-01,colorfield,ordered,True,18935.0
455d9f8f-8d6d-4e81-ba05-fb6c0ea99283,line-p-00,line chart,permuted,False,14804.0
455d9f8f-8d6d-4e81-ba05-fb6c0ea99283,cf-np-02,colorfield,ordered,True,11026.0
455d9f8f-8d6d-4e81-ba05-fb6c0ea99283,line-p-05,line chart,permuted,True,7000.0
455d9f8f-8d6d-4e81-ba05-fb6c0ea99283,cf-np-04,colorfield,ordered,True,10299.0
455d9f8f-8d6d-4e81-ba05-fb6c0ea99283,line-np-09,line chart,ordered,False,34557.0
455d9f8f-8d6d-4e81-ba05-fb6c0ea99283,cf-p-07,colorfield,permuted,False,18922.0
455d9f8f-8d6d-4e81-ba05-fb6c0ea99283,line-np-01,line chart,ordered,False,15316.0
455d9f8f-8d6d-4e81-ba05-fb6c0ea99283,cf-np-06,colorfield,ordered,True,15672.0
455d9f8f-8d6d-4e81-ba05-fb6c0ea99283,line-np-02,line chart,ordered,False,14626.0
455d9f8f-8d6d-4e81-ba05-fb6c0ea99283,line-p-01,line chart,permuted,True,10489.0
455d9f8f-8d6d-4e81-ba05-fb6c0ea99283,cf-np-09,colorfield,ordered,False,10573.0
455d9f8f-8d6d-4e81-ba05-fb6c0ea99283,cf-p-00,colorfield,permuted,True,12388.0
455d9f8f-8d6d-4e81-ba05-fb6c0ea99283,line-p-08,line chart,permuted,False,8784.0
455d9f8f-8d6d-4e81-ba05-fb6c0ea99283,cf-p-09,colorfield,permuted,True,10478.0
455d9f8f-8d6d-4e81-ba05-fb6c0ea99283,cf-p-02,colorfield,permuted,True,8662.0
455d9f8f-8d6d-4e81-ba05-fb6c0ea99283,line-np-04,line chart,ordered,False,18392.0
455d9f8f-8d6d-4e81-ba05-fb6c0ea99283,cf-np-03,colorfield,ordered,False,8313.0
455d9f8f-8d6d-4e81-ba05-fb6c0ea99283,cf-np-08,colorfield,ordered,True,6994.0
455d9f8f-8d6d-4e81-ba05-fb6c0ea99283,line-np-07,line chart,ordered,False,13061.0
455d9f8f-8d6d-4e81-ba05-fb6c0ea99283,line-np-06,line chart,ordered,True,20225.0
455d9f8f-8d6d-4e81-ba05-fb6c0ea99283,line-p-04,line chart,permuted,False,15460.0
455d9f8f-8d6d-4e81-ba05-fb6c0ea99283,line-p-03,line chart,permuted,False,20111.0
455d9f8f-8d6d-4e81-ba05-fb6c0ea99283,cf-p-03,colorfield,permuted,False,12317.0
455d9f8f-8d6d-4e81-ba05-fb6c0ea99283,line-p-09,line chart,permuted,False,15720.0
455d9f8f-8d6d-4e81-ba05-fb6c0ea99283,cf-p-08,colorfield,permuted,False,15196.0
455d9f8f-8d6d-4e81-ba05-fb6c0ea99283,line-p-02,line chart,permuted,False,9617.0
455d9f8f-8d6d-4e81-ba05-fb6c0ea99283,line-np-03,line chart,ordered,False,18818.0
455d9f8f-8d6d-4e81-ba05-fb6c0ea99283,cf-np-05,colorfield,ordered,True,4943.0
455d9f8f-8d6d-4e81-ba05-fb6c0ea99283,cf-p-06,colorfield,permuted,True,7327.0
455d9f8f-8d6d-4e81-ba05-fb6c0ea99283,cf-p-05,colorfield,permuted,False,8312.0
455d9f8f-8d6d-4e81-ba05-fb6c0ea99283,line-np-05,line chart,ordered,True,14982.0
455d9f8f-8d6d-4e81-ba05-fb6c0ea99283,cf-np-07,colorfield,ordered,False,5867.0
455d9f8f-8d6d-4e81-ba05-fb6c0ea99283,line-np-08,line chart,ordered,True,20724.0
455d9f8f-8d6d-4e81-ba05-fb6c0ea99283,line-np-00,line chart,ordered,False,14778.0
455d9f8f-8d6d-4e81-ba05-fb6c0ea99283,line-p-07,line chart,permuted,False,11445.0
455d9f8f-8d6d-4e81-ba05-fb6c0ea99283,line-p-06,line chart,permuted,False,22419.0
455d9f8f-8d6d-4e81-ba05-fb6c0ea99283,cf-p-04,colorfield,permuted,False,8878.0
4bfefcaa-a537-4761-b09a-6142e11481de,cf-np-04,colorfield,ordered,False,29360.0
4bfefcaa-a537-4761-b09a-6142e11481de,line-p-03,line chart,permuted,True,11526.0
4bfefcaa-a537-4761-b09a-6142e11481de,cf-np-03,colorfield,ordered,False,6535.0
4bfefcaa-a537-4761-b09a-6142e11481de,cf-np-07,colorfield,ordered,False,10478.0
4bfefcaa-a537-4761-b09a-6142e11481de,cf-p-07,colorfield,permuted,False,14735.0
4bfefcaa-a537-4761-b09a-6142e11481de,line-p-07,line chart,permuted,False,11795.0
4bfefcaa-a537-4761-b09a-6142e11481de,cf-p-02,colorfield,permuted,False,26774.0
4bfefcaa-a537-4761-b09a-6142e11481de,cf-np-01,colorfield,ordered,True,13328.0
4bfefcaa-a537-4761-b09a-6142e11481de,cf-p-06,colorfield,permuted,True,17348.0
4bfefcaa-a537-4761-b09a-6142e11481de,cf-p-03,colorfield,permuted,False,12001.0
4bfefcaa-a537-4761-b09a-6142e11481de,line-p-05,line chart,permuted,False,7201.0
4bfefcaa-a537-4761-b09a-6142e11481de,line-np-06,line chart,ordered,True,8914.0
4bfefcaa-a537-4761-b09a-6142e11481de,line-np-01,line chart,ordered,True,5776.0
4bfefcaa-a537-4761-b09a-6142e11481de,line-np-02,line chart,ordered,True,7273.0
4bfefcaa-a537-4761-b09a-6142e11481de,line-p-09,line chart,permuted,False,13918.0
4bfefcaa-a537-4761-b09a-6142e11481de,cf-p-05,colorfield,permuted,False,8367.0
4bfefcaa-a537-4761-b09a-6142e11481de,line-np-09,line chart,ordered,False,11345.0
4bfefcaa-a537-4761-b09a-6142e11481de,line-p-08,line chart,permuted,False,6869.0
4bfefcaa-a537-4761-b09a-6142e11481de,line-p-01,line chart,permuted,False,11013.0
4bfefcaa-a537-4761-b09a-6142e11481de,cf-np-00,colorfield,ordered,False,9232.0
4bfefcaa-a537-4761-b09a-6142e11481de,cf-np-06,colorfield,ordered,True,5269.0
4bfefcaa-a537-4761-b09a-6142e11481de,cf-np-05,colorfield,ordered,False,8898.0
4bfefcaa-a537-4761-b09a-6142e11481de,cf-np-09,colorfield,ordered,True,11477.0
4bfefcaa-a537-4761-b09a-6142e11481de,cf-p-08,colorfield,permuted,True,11704.0
4bfefcaa-a537-4761-b09a-6142e11481de,line-p-00,line chart,permuted,False,13039.0
4bfefcaa-a537-4761-b09a-6142e11481de,line-np-07,line chart,ordered,False,5908.0
4bfefcaa-a537-4761-b09a-6142e11481de,line-np-03,line chart,ordered,True,9412.0
4bfefcaa-a537-4761-b09a-6142e11481de,cf-p-09,colorfield,permuted,True,11792.0
4bfefcaa-a537-4761-b09a-6142e11481de,line-np-00,line chart,ordered,False,12423.0
4bfefcaa-a537-4761-b09a-6142e11481de,line-np-04,line chart,ordered,True,6924.0
4bfefcaa-a537-4761-b09a-6142e11481de,line-np-05,line chart,ordered,False,10558.0
4bfefcaa-a537-4761-b09a-6142e11481de,line-p-02,line chart,permuted,False,9676.0
4bfefcaa-a537-4761-b09a-6142e11481de,line-p-06,line chart,permuted,False,13117.0
4bfefcaa-a537-4761-b09a-6142e11481de,line-np-08,line chart,ordered,False,10362.0
4bfefcaa-a537-4761-b09a-6142e11481de,line-p-04,line chart,permuted,False,8866.0
4bfefcaa-a537-4761-b09a-6142e11481de,cf-np-02,colorfield,ordered,True,14642.0
4bfefcaa-a537-4761-b09a-6142e11481de,cf-p-00,colorfield,permuted,False,9194.0
4bfefcaa-a537-4761-b09a-6142e11481de,cf-np-08,colorfield,ordered,False,8590.0
4bfefcaa-a537-4761-b09a-6142e11481de,cf-p-04,colorfield,permuted,False,15292.0
4bfefcaa-a537-4761-b09a-6142e11481de,cf-p-01,colorfield,permuted,False,11402.0
5f20a3ed-f71a-44b3-b53f-358bc834d8ff,cf-p-02,colorfield,permuted,False,28914.0
5f20a3ed-f71a-44b3-b53f-358bc834d8ff,cf-p-04,colorfield,permuted,False,26777.0
5f20a3ed-f71a-44b3-b53f-358bc834d8ff,cf-np-03,colorfield,ordered,False,13124.0
5f20a3ed-f71a-44b3-b53f-358bc834d8ff,line-p-08,line chart,permuted,True,27976.0
5f20a3ed-f71a-44b3-b53f-358bc834d8ff,cf-np-07,colorfield,ordered,True,48839.0
5f20a3ed-f71a-44b3-b53f-358bc834d8ff,cf-p-03,colorfield,permuted,True,16887.0
5f20a3ed-f71a-44b3-b53f-358bc834d8ff,cf-np-01,colorfield,ordered,True,13313.0
5f20a3ed-f71a-44b3-b53f-358bc834d8ff,line-np-09,line chart,ordered,False,36344.0
5f20a3ed-f71a-44b3-b53f-358bc834d8ff,cf-np-02,colorfield,ordered,True,22704.0
5f20a3ed-f71a-44b3-b53f-358bc834d8ff,line-np-06,line chart,ordered,True,24017.0
5f20a3ed-f71a-44b3-b53f-358bc834d8ff,line-p-00,line chart,permuted,True,21052.0
5f20a3ed-f71a-44b3-b53f-358bc834d8ff,cf-np-00,colorfield,ordered,True,16126.0
5f20a3ed-f71a-44b3-b53f-358bc834d8ff,cf-np-05,colorfield,ordered,True,13059.0
5f20a3ed-f71a-44b3-b53f-358bc834d8ff,line-p-02,line chart,permuted,True,14562.0
5f20a3ed-f71a-44b3-b53f-358bc834d8ff,line-p-01,line chart,permuted,False,14255.0
5f20a3ed-f71a-44b3-b53f-358bc834d8ff,line-p-05,line chart,permuted,True,18387.0
5f20a3ed-f71a-44b3-b53f-358bc834d8ff,cf-p-05,colorfield,permuted,True,8017.0
5f20a3ed-f71a-44b3-b53f-358bc834d8ff,line-np-08,line chart,ordered,True,20800.0
5f20a3ed-f71a-44b3-b53f-358bc834d8ff,line-np-05,line chart,ordered,False,20840.0
5f20a3ed-f71a-44b3-b53f-358bc834d8ff,cf-p-09,colorfield,permuted,True,21827.0
5f20a3ed-f71a-44b3-b53f-358bc834d8ff,line-np-04,line chart,ordered,True,14300.0
5f20a3ed-f71a-44b3-b53f-358bc834d8ff,line-p-03,line chart,permuted,False,17214.0
5f20a3ed-f71a-44b3-b53f-358bc834d8ff,cf-np-04,colorfield,ordered,True,16201.0
5f20a3ed-f71a-44b3-b53f-358bc834d8ff,cf-p-00,colorfield,permuted,True,17386.0
5f20a3ed-f71a-44b3-b53f-358bc834d8ff,line-np-03,line chart,ordered,True,26654.0
5f20a3ed-f71a-44b3-b53f-358bc834d8ff,line-p-06,line chart,permuted,False,32806.0
5f20a3ed-f71a-44b3-b53f-358bc834d8ff,cf-np-06,colorfield,ordered,False,25396.0
5f20a3ed-f71a-44b3-b53f-358bc834d8ff,cf-np-08,colorfield,ordered,True,14998.0
5f20a3ed-f71a-44b3-b53f-358bc834d8ff,cf-p-08,colorfield,permuted,False,12215.0
5f20a3ed-f71a-44b3-b53f-358bc834d8ff,line-p-07,line chart,permuted,False,19140.0
5f20a3ed-f71a-44b3-b53f-358bc834d8ff,cf-np-09,colorfield,ordered,False,17912.0
5f20a3ed-f71a-44b3-b53f-358bc834d8ff,line-np-02,line chart,ordered,True,10856.0
5f20a3ed-f71a-44b3-b53f-358bc834d8ff,line-np-01,line chart,ordered,False,24306.0
5f20a3ed-f71a-44b3-b53f-358bc834d8ff,cf-p-01,colorfield,permuted,False,31560.0
5f20a3ed-f71a-44b3-b53f-358bc834d8ff,line-p-09,line chart,permuted,False,8865.0
5f20a3ed-f71a-44b3-b53f-358bc834d8ff,line-np-07,line chart,ordered,False,18768.0
5f20a3ed-f71a-44b3-b53f-358bc834d8ff,line-np-00,line chart,ordered,False,18287.0
5f20a3ed-f71a-44b3-b53f-358bc834d8ff,cf-p-06,colorfield,permuted,True,21366.0
5f20a3ed-f71a-44b3-b53f-358bc834d8ff,cf-p-07,colorfield,permuted,False,13395.0
5f20a3ed-f71a-44b3-b53f-358bc834d8ff,line-p-04,line chart,permuted,True,19721.0
64a7c7ff-f7e0-42a2-b1a6-b8d9680376e8,line-np-07,line chart,ordered,False,21499.0
64a7c7ff-f7e0-42a2-b1a6-b8d9680376e8,line-p-04,line chart,permuted,True,11019.0
64a7c7ff-f7e0-42a2-b1a6-b8d9680376e8,cf-np-08,colorfield,ordered,True,13814.0
64a7c7ff-f7e0-42a2-b1a6-b8d9680376e8,line-p-03,line chart,permuted,False,35578.0
64a7c7ff-f7e0-42a2-b1a6-b8d9680376e8,cf-p-00,colorfield,permuted,False,16952.0
64a7c7ff-f7e0-42a2-b1a6-b8d9680376e8,cf-np-01,colorfield,ordered,True,12908.0
64a7c7ff-f7e0-42a2-b1a6-b8d9680376e8,cf-np-06,colorfield,ordered,False,12241.0
64a7c7ff-f7e0-42a2-b1a6-b8d9680376e8,cf-np-09,colorfield,ordered,False,30965.0
64a7c7ff-f7e0-42a2-b1a6-b8d9680376e8,line-p-07,line chart,permuted,False,18570.0
64a7c7ff-f7e0-42a2-b1a6-b8d9680376e8,line-np-05,line chart,ordered,False,44493.0
64a7c7ff-f7e0-42a2-b1a6-b8d9680376e8,cf-p-04,colorfield,permuted,False,10475.0
64a7c7ff-f7e0-42a2-b1a6-b8d9680376e8,cf-p-06,colorfield,permuted,True,10741.0
64a7c7ff-f7e0-42a2-b1a6-b8d9680376e8,cf-np-00,colorfield,ordered,False,13349.0
64a7c7ff-f7e0-42a2-b1a6-b8d9680376e8,line-p-02,line chart,permuted,False,16080.0
64a7c7ff-f7e0-42a2-b1a6-b8d9680376e8,cf-p-02,colorfield,permuted,False,18282.0
64a7c7ff-f7e0-42a2-b1a6-b8d9680376e8,line-p-09,line chart,permuted,False,14497.0
64a7c7ff-f7e0-42a2-b1a6-b8d9680376e8,line-np-03,line chart,ordered,True,20192.0
64a7c7ff-f7e0-42a2-b1a6-b8d9680376e8,line-p-06,line chart,permuted,False,15857.0
64a7c7ff-f7e0-42a2-b1a6-b8d9680376e8,line-np-08,line chart,ordered,False,13581.0
64a7c7ff-f7e0-42a2-b1a6-b8d9680376e8,cf-np-07,colorfield,ordered,False,10185.0
64a7c7ff-f7e0-42a2-b1a6-b8d9680376e8,line-p-01,line chart,permuted,False,16143.0
64a7c7ff-f7e0-42a2-b1a6-b8d9680376e8,line-p-08,line chart,permuted,False,11208.0
64a7c7ff-f7e0-42a2-b1a6-b8d9680376e8,line-p-05,line chart,permuted,True,6946.0
64a7c7ff-f7e0-42a2-b1a6-b8d9680376e8,cf-np-03,colorfield,ordered,True,8279.0
64a7c7ff-f7e0-42a2-b1a6-b8d9680376e8,line-np-06,line chart,ordered,True,26837.0
64a7c7ff-f7e0-42a2-b1a6-b8d9680376e8,cf-p-05,colorfield,permuted,True,10941.0
64a7c7ff-f7e0-42a2-b1a6-b8d9680376e8,cf-p-08,colorfield,permuted,False,10064.0
64a7c7ff-f7e0-42a2-b1a6-b8d9680376e8,line-p-00,line chart,permuted,False,13451.0
64a7c7ff-f7e0-42a2-b1a6-b8d9680376e8,line-np-00,line chart,ordered,False,18037.0
64a7c7ff-f7e0-42a2-b1a6-b8d9680376e8,line-np-04,line chart,ordered,False,7388.0
64a7c7ff-f7e0-42a2-b1a6-b8d9680376e8,cf-np-02,colorfield,ordered,True,9070.0
64a7c7ff-f7e0-42a2-b1a6-b8d9680376e8,cf-p-09,colorfield,permuted,True,7659.0
64a7c7ff-f7e0-42a2-b1a6-b8d9680376e8,cf-p-03,colorfield,permuted,False,7854.0
64a7c7ff-f7e0-42a2-b1a6-b8d9680376e8,line-np-01,line chart,ordered,False,13266.0
64a7c7ff-f7e0-42a2-b1a6-b8d9680376e8,cf-p-07,colorfield,permuted,False,6747.0
64a7c7ff-f7e0-42a2-b1a6-b8d9680376e8,cf-np-04,colorfield,ordered,True,5580.0
64a7c7ff-f7e0-42a2-b1a6-b8d9680376e8,line-np-09,line chart,ordered,False,10844.0
64a7c7ff-f7e0-42a2-b1a6-b8d9680376e8,cf-np-05,colorfield,ordered,False,8557.0
64a7c7ff-f7e0-42a2-b1a6-b8d9680376e8,line-np-02,line chart,ordered,False,7274.0
64a7c7ff-f7e0-42a2-b1a6-b8d9680376e8,cf-p-01,colorfield,permuted,True,9162.0
6cb824e2-5978-46e3-9de0-765b47d4aa4d,cf-p-05,colorfield,permuted,True,35653.0
6cb824e2-5978-46e3-9de0-765b47d4aa4d,cf-p-00,colorfield,permuted,False,25702.0
6cb824e2-5978-46e3-9de0-765b47d4aa4d,cf-p-02,colorfield,permuted,False,14071.0
6cb824e2-5978-46e3-9de0-765b47d4aa4d,cf-p-07,colorfield,permuted,False,12723.0
6cb824e2-5978-46e3-9de0-765b47d4aa4d,cf-np-02,colorfield,ordered,True,16954.0
6cb824e2-5978-46e3-9de0-765b47d4aa4d,line-p-07,line chart,permuted,False,19375.0
6cb824e2-5978-46e3-9de0-765b47d4aa4d,line-p-05,line chart,permuted,True,18041.0
6cb824e2-5978-46e3-9de0-765b47d4aa4d,cf-np-05,colorfield,ordered,True,11394.0
6cb824e2-5978-46e3-9de0-765b47d4aa4d,line-np-09,line chart,ordered,False,32527.0
6cb824e2-5978-46e3-9de0-765b47d4aa4d,cf-np-08,colorfield,ordered,True,14864.0
6cb824e2-5978-46e3-9de0-765b47d4aa4d,line-p-00,line chart,permuted,False,26888.0
6cb824e2-5978-46e3-9de0-765b47d4aa4d,cf-np-06,colorfield,ordered,False,14729.0
6cb824e2-5978-46e3-9de0-765b47d4aa4d,line-p-09,line chart,permuted,False,12106.0
6cb824e2-5978-46e3-9de0-765b47d4aa4d,cf-np-07,colorfield,ordered,False,12208.0
6cb824e2-5978-46e3-9de0-765b47d4aa4d,line-np-01,line chart,ordered,True,12575.0
6cb824e2-5978-46e3-9de0-765b47d4aa4d,line-np-04,line chart,ordered,False,15078.0
6cb824e2-5978-46e3-9de0-765b47d4aa4d,cf-p-04,colorfield,permuted,True,13005.0
6cb824e2-5978-46e3-9de0-765b47d4aa4d,line-np-06,line chart,ordered,True,7894.0
6cb824e2-5978-46e3-9de0-765b47d4aa4d,cf-np-01,colorfield,ordered,True,10144.0
6cb824e2-5978-46e3-9de0-765b47d4aa4d,cf-np-04,colorfield,ordered,False,16830.0
6cb824e2-5978-46e3-9de0-765b47d4aa4d,line-np-00,line chart,ordered,False,13801.0
6cb824e2-5978-46e3-9de0-765b47d4aa4d,line-p-06,line chart,permuted,False,8607.0
6cb824e2-5978-46e3-9de0-765b47d4aa4d,cf-p-08,colorfield,permuted,False,14408.0
6cb824e2-5978-46e3-9de0-765b47d4aa4d,cf-np-09,colorfield,ordered,True,16709.0
6cb824e2-5978-46e3-9de0-765b47d4aa4d,cf-p-03,colorfield,permuted,False,10576.0
6cb824e2-5978-46e3-9de0-765b47d4aa4d,line-p-03,line chart,permuted,False,9557.0
6cb824e2-5978-46e3-9de0-765b47d4aa4d,cf-np-00,colorfield,ordered,True,12062.0
6cb824e2-5978-46e3-9de0-765b47d4aa4d,line-p-04,line chart,permuted,False,24295.0
6cb824e2-5978-46e3-9de0-765b47d4aa4d,line-np-08,line chart,ordered,False,19267.0
6cb824e2-5978-46e3-9de0-765b47d4aa4d,cf-p-06,colorfield,permuted,False,14154.0
6cb824e2-5978-46e3-9de0-765b47d4aa4d,cf-np-03,colorfield,ordered,False,20114.0
6cb824e2-5978-46e3-9de0-765b47d4aa4d,line-np-05,line chart,ordered,False,12693.0
6cb824e2-5978-46e3-9de0-765b47d4aa4d,line-p-01,line chart,permuted,False,12976.0
6cb824e2-5978-46e3-9de0-765b47d4aa4d,line-p-02,line chart,permuted,False,18922.0
6cb824e2-5978-46e3-9de0-765b47d4aa4d,line-np-02,line chart,ordered,True,6472.0
6cb824e2-5978-46e3-9de0-765b47d4aa4d,line-np-03,line chart,ordered,False,9574.0
6cb824e2-5978-46e3-9de0-765b47d4aa4d,cf-p-09,colorfield,permuted,False,12089.0
6cb824e2-5978-46e3-9de0-765b47d4aa4d,line-p-08,line chart,permuted,True,8178.0
6cb824e2-5978-46e3-9de0-765b47d4aa4d,line-np-07,line chart,ordered,False,12651.0
6cb824e2-5978-46e3-9de0-765b47d4aa4d,cf-p-01,colorfield,permuted,True,13073.0
781c60cf-2ff7-4ed0-9f1a-9c4a80f84cb2,cf-np-01,colorfield,ordered,True,59369.0
781c60cf-2ff7-4ed0-9f1a-9c4a80f84cb2,cf-p-09,colorfield,permuted,True,36719.0
781c60cf-2ff7-4ed0-9f1a-9c4a80f84cb2,cf-p-06,colorfield,permuted,False,21627.0
781c60cf-2ff7-4ed0-9f1a-9c4a80f84cb2,line-np-03,line chart,ordered,False,19756.0
781c60cf-2ff7-4ed0-9f1a-9c4a80f84cb2,line-p-06,line chart,permuted,True,20850.0
781c60cf-2ff7-4ed0-9f1a-9c4a80f84cb2,cf-np-03,colorfield,ordered,False,47856.0
781c60cf-2ff7-4ed0-9f1a-9c4a80f84cb2,cf-p-01,colorfield,permuted,True,32221.0
781c60cf-2ff7-4ed0-9f1a-9c4a80f84cb2,line-np-05,line chart,ordered,True,66828.0
781c60cf-2ff7-4ed0-9f1a-9c4a80f84cb2,cf-np-09,colorfield,ordered,False,19027.0
781c60cf-2ff7-4ed0-9f1a-9c4a80f84cb2,cf-p-08,colorfield,permuted,False,19295.0
781c60cf-2ff7-4ed0-9f1a-9c4a80f84cb2,cf-p-07,colorfield,permuted,False,21446.0
781c60cf-2ff7-4ed0-9f1a-9c4a80f84cb2,line-p-09,line chart,permuted,False,15922.0
781c60cf-2ff7-4ed0-9f1a-9c4a80f84cb2,line-p-08,line chart,permuted,False,14216.0
781c60cf-2ff7-4ed0-9f1a-9c4a80f84cb2,line-np-04,line chart,ordered,True,14012.0
781c60cf-2ff7-4ed0-9f1a-9c4a80f84cb2,cf-np-05,colorfield,ordered,False,10054.0
781c60cf-2ff7-4ed0-9f1a-9c4a80f84cb2,line-np-06,line chart,ordered,True,17738.0
781c60cf-2ff7-4ed0-9f1a-9c4a80f84cb2,line-p-07,line chart,permuted,False,30340.0
781c60cf-2ff7-4ed0-9f1a-9c4a80f84cb2,line-p-03,line chart,permuted,False,10829.0
781c60cf-2ff7-4ed0-9f1a-9c4a80f84cb2,line-np-08,line chart,ordered,True,12756.0
781c60cf-2ff7-4ed0-9f1a-9c4a80f84cb2,cf-np-04,colorfield,ordered,True,17042.0
781c60cf-2ff7-4ed0-9f1a-9c4a80f84cb2,cf-p-03,colorfield,permuted,False,10260.0
781c60cf-2ff7-4ed0-9f1a-9c4a80f84cb2,cf-p-05,colorfield,permuted,True,24755.0
781c60cf-2ff7-4ed0-9f1a-9c4a80f84cb2,line-p-00,line chart,permuted,False,28734.0
781c60cf-2ff7-4ed0-9f1a-9c4a80f84cb2,cf-np-06,colorfield,ordered,False,22632.0
781c60cf-2ff7-4ed0-9f1a-9c4a80f84cb2,line-p-04,line chart,permuted,True,11326.0
781c60cf-2ff7-4ed0-9f1a-9c4a80f84cb2,line-p-05,line chart,permuted,True,7193.0
781c60cf-2ff7-4ed0-9f1a-9c4a80f84cb2,cf-p-04,colorfield,permuted,False,25331.0
781c60cf-2ff7-4ed0-9f1a-9c4a80f84cb2,cf-np-07,colorfield,ordered,True,15157.0
781c60cf-2ff7-4ed0-9f1a-9c4a80f84cb2,cf-p-02,colorfield,permuted,True,24212.0
781c60cf-2ff7-4ed0-9f1a-9c4a80f84cb2,cf-np-00,colorfield,ordered,True,21976.0
781c60cf-2ff7-4ed0-9f1a-9c4a80f84cb2,line-np-01,line chart,ordered,False,26864.0
781c60cf-2ff7-4ed0-9f1a-9c4a80f84cb2,line-p-01,line chart,permuted,False,19256.0
781c60cf-2ff7-4ed0-9f1a-9c4a80f84cb2,cf-np-08,colorfield,ordered,True,7779.0
781c60cf-2ff7-4ed0-9f1a-9c4a80f84cb2,cf-np-02,colorfield,ordered,True,9686.0
781c60cf-2ff7-4ed0-9f1a-9c4a80f84cb2,cf-p-00,colorfield,permuted,False,14117.0
781c60cf-2ff7-4ed0-9f1a-9c4a80f84cb2,line-np-02,line chart,ordered,True,13419.0
781c60cf-2ff7-4ed0-9f1a-9c4a80f84cb2,line-np-09,line chart,ordered,False,18801.0
781c60cf-2ff7-4ed0-9f1a-9c4a80f84cb2,line-np-07,line chart,ordered,False,14580.0
781c60cf-2ff7-4ed0-9f1a-9c4a80f84cb2,line-p-02,line chart,permuted,False,12227.0
781c60cf-2ff7-4ed0-9f1a-9c4a80f84cb2,line-np-00,line chart,ordered,False,19331.0
932a40ac-0df0-49f1-82a4-88431a87a70c,line-np-09,line chart,ordered,False,74687.0
932a40ac-0df0-49f1-82a4-88431a87a70c,line-np-01,line chart,ordered,True,24348.0
932a40ac-0df0-49f1-82a4-88431a87a70c,cf-np-09,colorfield,ordered,False,84135.0
932a40ac-0df0-49f1-82a4-88431a87a70c,line-p-08,line chart,permuted,False,16331.0
932a40ac-0df0-49f1-82a4-88431a87a70c,line-np-05,line chart,ordered,True,23548.0
932a40ac-0df0-49f1-82a4-88431a87a70c,line-np-02,line chart,ordered,True,12593.0
932a40ac-0df0-49f1-82a4-88431a87a70c,cf-np-03,colorfield,ordered,False,10697.0
932a40ac-0df0-49f1-82a4-88431a87a70c,cf-p-09,colorfield,permuted,False,21480.0
932a40ac-0df0-49f1-82a4-88431a87a70c,cf-p-03,colorfield,permuted,False,24287.0
932a40ac-0df0-49f1-82a4-88431a87a70c,line-p-01,line chart,permuted,True,18179.0
932a40ac-0df0-49f1-82a4-88431a87a70c,cf-np-08,colorfield,ordered,False,13458.0
932a40ac-0df0-49f1-82a4-88431a87a70c,line-p-03,line chart,permuted,False,46090.0
932a40ac-0df0-49f1-82a4-88431a87a70c,cf-np-05,colorfield,ordered,True,13508.0
932a40ac-0df0-49f1-82a4-88431a87a70c,line-np-04,line chart,ordered,False,22347.0
932a40ac-0df0-49f1-82a4-88431a87a70c,line-np-08,line chart,ordered,False,25082.0
932a40ac-0df0-49f1-82a4-88431a87a70c,cf-p-08,colorfield,permuted,False,12953.0
932a40ac-0df0-49f1-82a4-88431a87a70c,line-p-09,line chart,permuted,False,13733.0
932a40ac-0df0-49f1-82a4-88431a87a70c,cf-p-06,colorfield,permuted,False,17907.0
932a40ac-0df0-49f1-82a4-88431a87a70c,line-p-06,line chart,permuted,False,18036.0
932a40ac-0df0-49f1-82a4-88431a87a70c,cf-p-05,colorfield,permuted,False,8992.0
932a40ac-0df0-49f1-82a4-88431a87a70c,cf-p-07,colorfield,permuted,False,20227.0
932a40ac-0df0-49f1-82a4-88431a87a70c,cf-p-00,colorfield,permuted,False,12884.0
932a40ac-0df0-49f1-82a4-88431a87a70c,cf-np-02,colorfield,ordered,False,15661.0
932a40ac-0df0-49f1-82a4-88431a87a70c,cf-p-01,colorfield,permuted,True,12885.0
932a40ac-0df0-49f1-82a4-88431a87a70c,line-np-06,line chart,ordered,True,17455.0
932a40ac-0df0-49f1-82a4-88431a87a70c,cf-p-02,colorfield,permuted,True,24231.0
932a40ac-0df0-49f1-82a4-88431a87a70c,line-p-07,line chart,permuted,False,27297.0
932a40ac-0df0-49f1-82a4-88431a87a70c,line-p-04,line chart,permuted,True,20805.0
932a40ac-0df0-49f1-82a4-88431a87a70c,cf-np-00,colorfield,ordered,True,12872.0
932a40ac-0df0-49f1-82a4-88431a87a70c,cf-np-01,colorfield,ordered,False,13161.0
932a40ac-0df0-49f1-82a4-88431a87a70c,cf-p-04,colorfield,permuted,True,23804.0
932a40ac-0df0-49f1-82a4-88431a87a70c,line-np-03,line chart,ordered,False,17106.0
932a40ac-0df0-49f1-82a4-88431a87a70c,line-p-02,line chart,permuted,True,10844.0
932a40ac-0df0-49f1-82a4-88431a87a70c,cf-np-07,colorfield,ordered,True,10391.0
932a40ac-0df0-49f1-82a4-88431a87a70c,cf-np-06,colorfield,ordered,True,8863.0
932a40ac-0df0-49f1-82a4-88431a87a70c,cf-np-04,colorfield,ordered,True,9932.0
932a40ac-0df0-49f1-82a4-88431a87a70c,line-np-00,line chart,ordered,True,24050.0
932a40ac-0df0-49f1-82a4-88431a87a70c,line-p-00,line chart,permuted,True,18109.0
932a40ac-0df0-49f1-82a4-88431a87a70c,line-p-05,line chart,permuted,True,9950.0
932a40ac-0df0-49f1-82a4-88431a87a70c,line-np-07,line chart,ordered,False,21325.0
a39be53b-8adf-4485-b5e2-b5c9ec1e0dc7,line-p-01,line chart,permuted,False,16030.0
a39be53b-8adf-4485-b5e2-b5c9ec1e0dc7,cf-np-03,colorfield,ordered,False,7396.0
a39be53b-8adf-4485-b5e2-b5c9ec1e0dc7,cf-p-07,colorfield,permuted,True,6844.0
a39be53b-8adf-4485-b5e2-b5c9ec1e0dc7,cf-np-07,colorfield,ordered,False,5927.0
a39be53b-8adf-4485-b5e2-b5c9ec1e0dc7,line-p-05,line chart,permuted,True,5142.0
a39be53b-8adf-4485-b5e2-b5c9ec1e0dc7,line-p-00,line chart,permuted,False,7571.0
a39be53b-8adf-4485-b5e2-b5c9ec1e0dc7,cf-p-00,colorfield,permuted,False,18978.0
a39be53b-8adf-4485-b5e2-b5c9ec1e0dc7,cf-np-05,colorfield,ordered,False,8543.0
a39be53b-8adf-4485-b5e2-b5c9ec1e0dc7,line-np-06,line chart,ordered,True,6358.0
a39be53b-8adf-4485-b5e2-b5c9ec1e0dc7,cf-p-08,colorfield,permuted,False,21957.0
a39be53b-8adf-4485-b5e2-b5c9ec1e0dc7,cf-p-02,colorfield,permuted,False,7296.0
a39be53b-8adf-4485-b5e2-b5c9ec1e0dc7,line-np-03,line chart,ordered,False,7193.0
a39be53b-8adf-4485-b5e2-b5c9ec1e0dc7,line-np-09,line chart,ordered,False,7659.0
a39be53b-8adf-4485-b5e2-b5c9ec1e0dc7,cf-np-09,colorfield,ordered,False,22143.0
a39be53b-8adf-4485-b5e2-b5c9ec1e0dc7,line-p-07,line chart,permuted,False,6931.0
a39be53b-8adf-4485-b5e2-b5c9ec1e0dc7,cf-p-06,colorfield,permuted,True,21107.0
a39be53b-8adf-4485-b5e2-b5c9ec1e0dc7,cf-np-00,colorfield,ordered,False,8945.0
a39be53b-8adf-4485-b5e2-b5c9ec1e0dc7,line-p-06,line chart,permuted,False,11775.0
a39be53b-8adf-4485-b5e2-b5c9ec1e0dc7,line-np-00,line chart,ordered,False,5884.0
a39be53b-8adf-4485-b5e2-b5c9ec1e0dc7,line-np-08,line chart,ordered,False,11013.0
a39be53b-8adf-4485-b5e2-b5c9ec1e0dc7,line-p-08,line chart,permuted,False,6825.0
a39be53b-8adf-4485-b5e2-b5c9ec1e0dc7,cf-np-01,colorfield,ordered,False,17713.0
a39be53b-8adf-4485-b5e2-b5c9ec1e0dc7,cf-p-01,colorfield,permuted,True,6911.0
a39be53b-8adf-4485-b5e2-b5c9ec1e0dc7,cf-np-04,colorfield,ordered,True,10119.0
a39be53b-8adf-4485-b5e2-b5c9ec1e0dc7,line-p-04,line chart,permuted,True,7809.0
a39be53b-8adf-4485-b5e2-b5c9ec1e0dc7,line-p-03,line chart,permuted,False,5710.0
a39be53b-8adf-4485-b5e2-b5c9ec1e0dc7,cf-np-06,colorfield,ordered,True,10509.0
a39be53b-8adf-4485-b5e2-b5c9ec1e0dc7,line-np-04,line chart,ordered,True,25045.0
a39be53b-8adf-4485-b5e2-b5c9ec1e0dc7,cf-np-02,colorfield,ordered,True,10451.0
a39be53b-8adf-4485-b5e2-b5c9ec1e0dc7,cf-np-08,colorfield,ordered,False,6400.0
a39be53b-8adf-4485-b5e2-b5c9ec1e0dc7,line-p-02,line chart,permuted,False,13141.0
a39be53b-8adf-4485-b5e2-b5c9ec1e0dc7,cf-p-03,colorfield,permuted,False,6847.0
a39be53b-8adf-4485-b5e2-b5c9ec1e0dc7,line-p-09,line chart,permuted,False,14952.0
a39be53b-8adf-4485-b5e2-b5c9ec1e0dc7,cf-p-09,colorfield,permuted,True,8912.0
a39be53b-8adf-4485-b5e2-b5c9ec1e0dc7,line-np-02,line chart,ordered,False,7375.0
a39be53b-8adf-4485-b5e2-b5c9ec1e0dc7,cf-p-05,colorfield,permuted,False,6594.0
a39be53b-8adf-4485-b5e2-b5c9ec1e0dc7,line-np-05,line chart,ordered,False,10790.0
a39be53b-8adf-4485-b5e2-b5c9ec1e0dc7,cf-p-04,colorfield,permuted,False,7457.0
a39be53b-8adf-4485-b5e2-b5c9ec1e0dc7,line-np-01,line chart,ordered,False,8421.0
a39be53b-8adf-4485-b5e2-b5c9ec1e0dc7,line-np-07,line chart,ordered,False,6726.0
adab8aab-aef2-4a61-9799-74aef86b01bf,cf-p-07,colorfield,permuted,True,33342.0
adab8aab-aef2-4a61-9799-74aef86b01bf,cf-p-08,colorfield,permuted,False,25271.0
adab8aab-aef2-4a61-9799-74aef86b01bf,line-p-01,line chart,permuted,False,38644.0
adab8aab-aef2-4a61-9799-74aef86b01bf,line-np-05,line chart,ordered,True,13845.0
adab8aab-aef2-4a61-9799-74aef86b01bf,line-p-05,line chart,permuted,True,8905.0
adab8aab-aef2-4a61-9799-74aef86b01bf,line-np-09,line chart,ordered,False,21155.0
adab8aab-aef2-4a61-9799-74aef86b01bf,line-np-08,line chart,ordered,False,18456.0
adab8aab-aef2-4a61-9799-74aef86b01bf,cf-p-03,colorfield,permuted,False,18204.0
adab8aab-aef2-4a61-9799-74aef86b01bf,line-p-06,line chart,permuted,False,11499.0
adab8aab-aef2-4a61-9799-74aef86b01bf,cf-p-09,colorfield,permuted,False,15841.0
adab8aab-aef2-4a61-9799-74aef86b01bf,cf-p-04,colorfield,permuted,False,14181.0
adab8aab-aef2-4a61-9799-74aef86b01bf,cf-p-06,colorfield,permuted,False,10501.0
adab8aab-aef2-4a61-9799-74aef86b01bf,line-p-03,line chart,permuted,False,5950.0
adab8aab-aef2-4a61-9799-74aef86b01bf,line-p-04,line chart,permuted,True,17863.0
adab8aab-aef2-4a61-9799-74aef86b01bf,line-p-00,line chart,permuted,False,9718.0
adab8aab-aef2-4a61-9799-74aef86b01bf,line-p-08,line chart,permuted,False,16043.0
adab8aab-aef2-4a61-9799-74aef86b01bf,cf-np-04,colorfield,ordered,True,4194.0
adab8aab-aef2-4a61-9799-74aef86b01bf,line-np-03,line chart,ordered,True,10378.0
adab8aab-aef2-4a61-9799-74aef86b01bf,cf-np-00,colorfield,ordered,True,16146.0
adab8aab-aef2-4a61-9799-74aef86b01bf,cf-p-00,colorfield,permuted,False,164062.0
adab8aab-aef2-4a61-9799-74aef86b01bf,line-np-07,line chart,ordered,False,16476.0
adab8aab-aef2-4a61-9799-74aef86b01bf,line-np-02,line chart,ordered,True,7143.0
adab8aab-aef2-4a61-9799-74aef86b01bf,line-p-09,line chart,permuted,False,13776.0
adab8aab-aef2-4a61-9799-74aef86b01bf,line-p-02,line chart,permuted,True,5084.0
adab8aab-aef2-4a61-9799-74aef86b01bf,line-np-00,line chart,ordered,False,16759.0
adab8aab-aef2-4a61-9799-74aef86b01bf,cf-np-01,colorfield,ordered,True,11154.0
adab8aab-aef2-4a61-9799-74aef86b01bf,line-np-06,line chart,ordered,True,11380.0
adab8aab-aef2-4a61-9799-74aef86b01bf,line-p-07,line chart,permuted,False,6705.0
adab8aab-aef2-4a61-9799-74aef86b01bf,cf-np-07,colorfield,ordered,False,8816.0
adab8aab-aef2-4a61-9799-74aef86b01bf,cf-np-09,colorfield,ordered,False,18025.0
adab8aab-aef2-4a61-9799-74aef86b01bf,line-np-04,line chart,ordered,True,12058.0
adab8aab-aef2-4a61-9799-74aef86b01bf,cf-np-02,colorfield,ordered,True,10906.0
adab8aab-aef2-4a61-9799-74aef86b01bf,cf-np-08,colorfield,ordered,True,13336.0
adab8aab-aef2-4a61-9799-74aef86b01bf,cf-np-06,colorfield,ordered,True,6407.0
adab8aab-aef2-4a61-9799-74aef86b01bf,cf-np-05,colorfield,ordered,False,8934.0
adab8aab-aef2-4a61-9799-74aef86b01bf,cf-np-03,colorfield,ordered,True,5882.0
adab8aab-aef2-4a61-9799-74aef86b01bf,line-np-01,line chart,ordered,False,7917.0
adab8aab-aef2-4a61-9799-74aef86b01bf,cf-p-01,colorfield,permuted,False,3991.0
adab8aab-aef2-4a61-9799-74aef86b01bf,cf-p-02,colorfield,permuted,False,12271.0
adab8aab-aef2-4a61-9799-74aef86b01bf,cf-p-05,colorfield,permuted,True,5368.0
